Folder: 7th_sem/Coursework/Advanced labs/Prof. Sangita Bose/XRD

Note: README.md
# 7th_sem
All my Seventh Semester reference material, project stuff and handouts are here. Enjoy!!

File: Cu-Cu
10.0	31.0
10.4	39.0
10.8	34.0
11.2	29.0
11.6	40.0
12.0	40.0
12.4	49.0
12.8	51.0
13.2	41.0
13.6	43.0
14.0	50.0
14.4	44.0
14.8	43.0
15.2	40.0
15.6	41.0
16.0	52.0
16.4	35.0
16.7	48.0
17.2	44.0
17.6	38.0
18.0	37.0
18.4	43.0
18.8	43.0
19.2	48.0
19.6	43.0
20.0	34.0
20.4	34.0
20.8	35.0
21.2	42.0
21.6	32.0
22.0	37.0
22.4	31.0
22.8	28.0
23.2	36.0
23.6	38.0
24.0	43.0
24.4	36.0
24.7	33.0
25.2	40.0
25.6	38.0
26.0	41.0
26.4	42.0
26.8	42.0
27.2	36.0
27.6	38.0
28.0	44.0
28.4	42.0
28.8	39.0
29.2	32.0
29.6	45.0
30.0	46.0
30.4	38.0
30.8	47.0
31.2	49.0
31.6	41.0
32.0	44.0
32.4	45.0
32.8	40.0
33.2	36.0
33.6	43.0
34.0	33.0
34.4	38.0
34.8	40.0
35.2	48.0
35.5	35.0
36.0	41.0
36.4	36.0
36.8	36.0
37.2	36.0
37.5	44.0
38.0	27.0
38.4	32.0
38.8	40.0
39.2	32.0
39.5	45.0
40.0	32.0
40.4	35.0
40.8	30.0
41.2	26.0
41.5	36.0
42.0	35.0
42.4	41.0
42.8	41.0
43.2	57.0
43.6	119.0
44.0	131.0
44.4	39.0
44.8	39.0
45.2	31.0
45.5	30.0
46.0	33.0
46.4	32.0
46.8	32.0
47.2	34.0
47.6	28.0
48.0	27.0
48.4	31.0
48.8	30.0
49.2	29.0
49.5	21.0
50.0	25.0
50.4	45.0
50.8	65.0
51.2	34.0
51.6	34.0
52.0	33.0
52.4	23.0
52.8	28.0
53.2	26.0
53.6	25.0
54.0	27.0
54.4	24.0
54.8	23.0
55.2	27.0
55.6	22.0
56.0	17.0
56.4	23.0
56.8	22.0
57.2	16.0
57.6	21.0
58.0	25.0
58.4	24.0
58.8	24.0
59.2	29.0
59.6	21.0
60.0	21.0
60.4	22.0
60.8	19.0
61.2	18.0
61.6	20.0
62.0	22.0
62.4	19.0
62.8	18.0
63.2	16.0
63.6	22.0
64.0	19.0
64.4	20.0
64.8	20.0
65.2	20.0
65.6	15.0
66.0	18.0
66.4	18.0
66.8	19.0
67.2	16.0
67.6	17.0
68.0	15.0
68.4	20.0
68.8	17.0
69.1	20.0
69.6	18.0
70.0	19.0
70.4	14.0
70.8	12.0
71.2	18.0
71.6	19.0
72.0	17.0
72.4	25.0
72.8	22.0
73.2	12.0
73.6	18.0
74.0	22.0
74.4	17.0
74.8	18.0
75.2	17.0
75.6	17.0
76.0	17.0
76.4	20.0
76.8	15.0
77.2	17.0
77.6	19.0
78.0	14.0
78.4	14.0
78.8	19.0
79.1	15.0
79.6	19.0
80.0	18.0
80.4	17.0
80.8	17.0
81.1	16.0
81.6	16.0
82.0	13.0
82.4	14.0
82.8	18.0
83.2	15.0
83.6	10.0
84.0	13.0
84.4	16.0
84.8	14.0
85.2	19.0
85.6	17.0
86.0	18.0
86.4	15.0
86.8	15.0
87.2	15.0
87.6	19.0
88.0	14.0
88.4	19.0
88.8	17.0
89.1	20.0
89.6	13.0
90.0	20.0
90.4	19.0
90.8	17.0
91.1	20.0
91.6	20.0
92.0	16.0
92.4	14.0
92.8	23.0
93.2	12.0
93.6	13.0
94.0	15.0
94.4	15.0
94.8	25.0
95.2	25.0
95.6	19.0
96.0	16.0
96.4	15.0
96.8	13.0
97.2	28.0
97.6	15.0
98.0	17.0
98.4	19.0
98.8	16.0
99.1	17.0
99.6	15.0
100.0	19.0